{
  "resources": [
    {
      "resourceType": "Organization",
      "id": "waymark",
      "name": "Waymark",
      "type": [
        {
          "coding": [
            {
              "system": "http://terminology.hl7.org/CodeSystem/organization-type",
              "code": "prov",
              "display": "Healthcare Provider"
            }
          ]
        }
      ],
      "address": [
        {
          "use": "work",
          "line": ["123 Main St"],
          "city": "San Francisco",
          "state": "CA",
          "postalCode": "94103",
          "country": "USA"
        }
      ]
    },
    {
      "resourceType": "Patient",
      "id": "patient-1",
      "name": [
        {
          "use": "official",
          "family": "Smith",
          "given": ["John"]
        }
      ],
      "gender": "male",
      "birthDate": "1985-07-20",
      "managingOrganization": {
        "reference": "Organization/waymark"
      }
    },
    {
      "resourceType": "Patient",
      "id": "patient-2",
      "name": [
        {
          "use": "official",
          "family": "Doe",
          "given": ["Jane"]
        }
      ],
      "gender": "female",
      "birthDate": "1992-03-10",
      "managingOrganization": {
        "reference": "Organization/waymark"
      }
    },
    {
      "resourceType": "Patient",
      "id": "patient-3",
      "name": [
        {
          "use": "official",
          "family": "Lee",
          "given": ["Michael"]
        }
      ],
      "gender": "male",
      "birthDate": "1978-11-05",
      "managingOrganization": {
        "reference": "Organization/waymark"
      }
    },
    {
      "resourceType": "Patient",
      "id": "patient-4",
      "name": [
        {
          "use": "official",
          "family": "Gonzalez",
          "given": ["Maria"]
        }
      ],
      "gender": "female",
      "birthDate": "2000-06-25",
      "managingOrganization": {
        "reference": "Organization/waymark"
      }
    },
    {
      "resourceType": "Patient",
      "id": "patient-5",
      "name": [
        {
          "use": "official",
          "family": "Nguyen",
          "given": ["David"]
        }
      ],
      "gender": "male",
      "birthDate": "1995-09-15",
      "managingOrganization": {
        "reference": "Organization/waymark"
      }
    },
    {
      "resourceType": "Practitioner",
      "id": "chw-1",
      "name": [
        {
          "use": "official",
          "family": "Johnson",
          "given": ["Emily"]
        }
      ],
      "gender": "female",
      "organization": {
        "reference": "Organization/waymark"
      },
      "telecom": [
        {
          "system": "phone",
          "value": "555-123-4567",
          "use": "work"
        },
        {
          "system": "email",
          "value": "emily.johnson@waymarkcare.local",
          "use": "work"
        }
      ],
      "qualification": [
        {
          "code": {
            "coding": [
              {
                "system": "http://terminology.hl7.org/CodeSystem/v2-0360/2.7",
                "code": "CHW",
                "display": "Community Health Worker"
              }
            ]
          }
        }
      ]
    },
    {
      "resourceType": "Practitioner",
      "id": "chw-2",
      "name": [
        {
          "use": "official",
          "family": "Martinez",
          "given": ["Carlos"]
        }
      ],
      "gender": "male",
      "organization": {
        "reference": "Organization/waymark"
      },
      "telecom": [
        {
          "system": "phone",
          "value": "555-234-5678",
          "use": "work"
        },
        {
          "system": "email",
          "value": "carlos.martinez@waymarkcare.local",
          "use": "work"
        }
      ],
      "qualification": [
        {
          "code": {
            "coding": [
              {
                "system": "http://terminology.hl7.org/CodeSystem/v2-0360/2.7",
                "code": "CHW",
                "display": "Community Health Worker"
              }
            ]
          }
        }
      ]
    },
    {
      "resourceType": "Practitioner",
      "id": "chw-3",
      "name": [
        {
          "use": "official",
          "family": "Oluwaseun",
          "given": ["Amina"]
        }
      ],
      "gender": "female",
      "organization": {
        "reference": "Organization/waymark"
      },
      "telecom": [
        {
          "system": "phone",
          "value": "555-345-6789",
          "use": "work"
        },
        {
          "system": "email",
          "value": "amina.oluwaseun@waymarkcare.local",
          "use": "work"
        }
      ],
      "qualification": [
        {
          "code": {
            "coding": [
              {
                "system": "http://terminology.hl7.org/CodeSystem/v2-0360/2.7",
                "code": "CHW",
                "display": "Community Health Worker"
              }
            ]
          }
        }
      ]
    },
    {
      "resourceType": "Encounter",
      "id": "encounter-1",
      "status": "completed",
      "class": {
        "system": "http://terminology.hl7.org/CodeSystem/v3-ActCode",
        "code": "IMP",
        "display": "inpatient"
      },
      "text": {
        "status": "generated",
        "div": "<div>Patient presented with mild dehydration. Rehydration therapy provided.</div>"
      },
      "subject": {
        "reference": "Patient/patient-1"
      },
      "participant": [
        {
          "actor": {
            "reference": "Practitioner/chw-1"
          }
        }
      ],
      "period": {
        "start": "2024-01-15T10:00:00Z",
        "end": "2024-01-15T10:30:00Z"
      },
      "serviceProvider": {
        "reference": "Organization/waymark"
      }
    },
    {
      "resourceType": "Encounter",
      "id": "encounter-2",
      "status": "completed",
      "class": {
        "system": "http://terminology.hl7.org/CodeSystem/v3-ActCode",
        "code": "IMP",
        "display": "inpatient"
      },
      "text": {
        "status": "generated",
        "div": "<div>Follow-up for hypertension management. Blood pressure within normal range.</div>"
      },
      "subject": {
        "reference": "Patient/patient-1"
      },
      "participant": [
        {
          "actor": {
            "reference": "Practitioner/chw-3"
          }
        }
      ],
      "period": {
        "start": "2024-02-10T09:00:00Z",
        "end": "2024-02-10T09:45:00Z"
      },
      "serviceProvider": {
        "reference": "Organization/waymark"
      }
    },
    {
      "resourceType": "Encounter",
      "id": "encounter-3",
      "status": "completed",
      "class": {
        "system": "http://terminology.hl7.org/CodeSystem/v3-ActCode",
        "code": "IMP",
        "display": "inpatient"
      },
      "text": {
        "status": "generated",
        "div": "<div>Patient reported increased anxiety. Provided counseling session.</div>"
      },
      "subject": {
        "reference": "Patient/patient-1"
      },
      "participant": [
        {
          "actor": {
            "reference": "Practitioner/chw-2"
          }
        }
      ],
      "period": {
        "start": "2024-03-12T11:30:00Z",
        "end": "2024-03-12T12:00:00Z"
      },
      "serviceProvider": {
        "reference": "Organization/waymark"
      }
    },
    {
      "resourceType": "Encounter",
      "id": "encounter-4",
      "status": "completed",
      "class": {
        "system": "http://terminology.hl7.org/CodeSystem/v3-ActCode",
        "code": "IMP",
        "display": "inpatient"
      },
      "text": {
        "status": "generated",
        "div": "<div>Routine post-surgical checkup. No complications noted.</div>"
      },
      "subject": {
        "reference": "Patient/patient-2"
      },
      "participant": [
        {
          "actor": {
            "reference": "Practitioner/chw-1"
          }
        }
      ],
      "period": {
        "start": "2024-04-12T14:30:00Z",
        "end": "2024-04-12T15:00:00Z"
      },
      "serviceProvider": {
        "reference": "Organization/waymark"
      }
    },
    {
      "resourceType": "Encounter",
      "id": "encounter-5",
      "status": "completed",
      "class": {
        "system": "http://terminology.hl7.org/CodeSystem/v3-ActCode",
        "code": "IMP",
        "display": "inpatient"
      },
      "text": {
        "status": "generated",
        "div": "<div>Patient experiencing mild allergic reaction. Antihistamines administered.</div>"
      },
      "subject": {
        "reference": "Patient/patient-2"
      },
      "participant": [
        {
          "actor": {
            "reference": "Practitioner/chw-3"
          }
        }
      ],
      "period": {
        "start": "2024-05-10T10:00:00Z",
        "end": "2024-05-10T10:20:00Z"
      },
      "serviceProvider": {
        "reference": "Organization/waymark"
      }
    },
    {
      "resourceType": "Encounter",
      "id": "encounter-6",
      "status": "completed",
      "class": {
        "system": "http://terminology.hl7.org/CodeSystem/v3-ActCode",
        "code": "IMP",
        "display": "inpatient"
      },
      "text": {
        "status": "generated",
        "div": "<div>Check-up after respiratory infection. Symptoms have improved.</div>"
      },
      "subject": {
        "reference": "Patient/patient-3"
      },
      "participant": [
        {
          "actor": {
            "reference": "Practitioner/chw-2"
          }
        }
      ],
      "period": {
        "start": "2024-06-15T16:00:00Z",
        "end": "2024-06-15T16:30:00Z"
      },
      "serviceProvider": {
        "reference": "Organization/waymark"
      }
    },
    {
      "resourceType": "Encounter",
      "id": "encounter-7",
      "status": "completed",
      "class": {
        "system": "http://terminology.hl7.org/CodeSystem/v3-ActCode",
        "code": "IMP",
        "display": "inpatient"
      },
      "text": {
        "status": "generated",
        "div": "<div>Patient completed physical therapy session. Improvement noted.</div>"
      },
      "subject": {
        "reference": "Patient/patient-4"
      },
      "participant": [
        {
          "actor": {
            "reference": "Practitioner/chw-1"
          }
        }
      ],
      "period": {
        "start": "2024-07-22T08:30:00Z",
        "end": "2024-07-22T09:00:00Z"
      },
      "serviceProvider": {
        "reference": "Organization/waymark"
      }
    }
  ]
}
